Folder: helao-pH/potentiostat_test

Note: readme.md
# getting started

## environment setup
- install miniconda[https://docs.conda.io/en/latest/miniconda.html], python 3.7 preferred
- clone git repository
- from repo director, setup conda environment using `conda env create -f helao.yml`

File: cv_copper_test_1.txt
Scan;Index;Time (s);WE(1).Potential (V);WE(1).Current (A);Current range
1;1;0,610211998459363;0,0035736083984375;-1,220703125E-06;1 µA
1;57;7,44221198121022;0,134613037109375;-8,4381103515625E-08;1 µA
1;113;14,2742119639611;0,209259033203125;-5,4656982421875E-08;1 µA
1;169;21,1062119467119;0,0697021484375;-2,1661376953125E-07;1 µA
1;225;27,9382119294628;-0,068572998046875;-7,5225830078125E-07;1 µA
1;281;34,7702119122137;-0,210723876953125;-1,49627685546875E-06;1 µA
1;337;41,6022118949645;-0,172607421875;-9,613037109375E-07;1 µA
1;393;48,4342118777154;-0,0370880126953125;-1,3250732421875E-07;1 µA
2;449;55,2662118604662;0,09283447265625;-8,544921875E-09;1 µA
2;505;62,0982118432171;0,22613525390625;6,3934326171875E-08;1 µA
2;561;68,9302118259679;0,111328125;-1,1663818359375E-07;1 µA
2;617;75,7622118087188;-0,0273468017578125;-4,632568359375E-07;1 µA
2;673;82,5942117914697;-0,16717529296875;-1,1541748046875E-06;1 µA
2;729;89,4262117742205;-0,2147216796875;-1,53961181640625E-06;1 µA
2;785;96,2582117569714;-0,082244873046875;-9,8541259765625E-08;1 µA
3;841;103,090211739722;0,05316162109375;2,252197265625E-08;1 µA
3;897;109,922211722473;0,18682861328125;3,863525390625E-08;1 µA
3;953;116,754211705224;0,1536865234375;-5,9326171875E-08;1 µA
3;1009;123,586211687975;0,0174713134765625;-2,85888671875E-07;1 µA
3;1065;130,418211670726;-0,122528076171875;-9,1796875E-07;1 µA
3;1121;137,250211653477;-0,2554931640625;-2,4041748046875E-06;1 µA
3;1177;144,082211636227;-0,1239013671875;-5,126953125E-07;1 µA
4;1233;150,914211618978;0,011553955078125;-3,1890869140625E-08;1 µA
4;1289;157,746211601729;0,1422119140625;3,607177734375E-08;1 µA
4;1345;164,57821158448;0,201019287109375;-1,068115234375E-09;1 µA
4;1401;171,410211567231;0,062713623046875;-1,80877685546875E-07;1 µA
4;1457;178,242211549982;-0,076202392578125;-6,84814453125E-07;1 µA
4;1513;185,074211532733;-0,2161865234375;-1,2939453125E-06;1 µA
4;1569;191,906211515483;-0,16351318359375;-7,8338623046875E-07;1 µA
4;1625;198,738211498234;-0,0326202392578125;-1,129150390625E-09;1 µA
5;1681;205,570211480985;0,103057861328125;4,9346923828125E-08;1 µA
5;1737;212,402211463736;0,23370361328125;8,8134765625E-08;1 µA
5;1793;219,234211446487;0,104949951171875;-1,124267578125E-07;1 µA
5;1849;226,066211429238;-0,036761474609375;-4,6661376953125E-07;1 µA
5;1905;232,898211411989;-0,172607421875;-1,11663818359375E-06;1 µA
5;1961;239,730211394739;-0,209075927734375;-1,41448974609375E-06;1 µA
5;2017;246,56221137749;-0,073638916015625;4,1839599609375E-08;1 µA
6;2073;253,394211360241;0,05816650390625;7,1441650390625E-08;1 µA
6;2129;260,226211342992;0,19091796875;5,2520751953125E-08;1 µA
6;2185;267,058211325743;0,150390625;-5,8868408203125E-08;1 µA
6;2241;273,890211308494;0,00785217285156251;-2,88970947265625E-07;1 µA
6;2297;280,722211291245;-0,127838134765625;-9,1217041015625E-07;1 µA
6;2353;287,554211273995;-0,249267578125;-2,3565673828125E-06;1 µA
6;2409;294,386211256746;-0,1142578125;-3,7689208984375E-07;1 µA
7;2465;301,218211239497;0,0196014404296875;1,458740234375E-08;1 µA
7;2521;308,050211222248;0,15289306640625;4,16259765625E-08;1 µA
7;2577;314,882211204999;0,190643310546875;-6,53076171875E-09;1 µA
7;2633;321,71421118775;0,05340576171875;-1,844482421875E-07;1 µA
7;2689;328,546211170501;-0,08477783203125;-7,0343017578125E-07;1 µA
7;2745;335,378211153251;-0,2266845703125;-1,3006591796875E-06;1 µA
7;2801;342,210211136002;-0,157562255859375;-6,9915771484375E-07;1 µA
7;2857;349,042211118753;-0,023046875;2,6458740234375E-08;1 µA
8;2913;355,874211101504;0,107269287109375;6,9091796875E-08;1 µA
8;2969;362,706211084255;0,235748291015625;7,65380859375E-08;1 µA
8;3025;369,538211067006;0,09814453125;-1,112060546875E-07;1 µA
8;3081;376,370211049757;-0,0415985107421875;-4,7882080078125E-07;1 µA
8;3137;383,202211032507;-0,18072509765625;-1,1041259765625E-06;1 µA
8;3193;390,034211015258;-0,197998046875;-1,25946044921875E-06;1 µA
8;3249;396,866210998009;-0,0670166015625;1,0650634765625E-07;1 µA
9;3305;403,69821098076;0,068511962890625;9,5916748046875E-08;1 µA
9;3361;410,530210963511;0,199462890625;6,16455078125E-08;1 µA
9;3417;417,362210946262;0,14068603515625;-6,0302734375E-08;1 µA
9;3473;424,194210929013;0,0016326904296875;-3,026123046875E-07;1 µA
9;3529;431,026210911763;-0,135772705078125;-9,2041015625E-07;1 µA
9;3585;437,858210894514;-0,240081787109375;-2,2723388671875E-06;1 µA
9;3641;444,690210877265;-0,11041259765625;-2,38983154296875E-07;1 µA
10;3697;451,522210860016;0,02418212890625;5,9722900390625E-08;1 µA
10;3753;458,354210842767;0,15625;5,31005859375E-08;1 µA
10;3809;465,186210825518;0,185211181640625;-1,141357421875E-08;1 µA
10;3865;472,018210808269;0,0426727294921875;-1,88323974609375E-07;1 µA
10;3921;478,850210791019;-0,09259033203125;-7,1502685546875E-07;1 µA
10;3977;485,68221077377;-0,23480224609375;-1,39678955078125E-06;1 µA
10;4033;492,514210756521;-0,148895263671875;-6,219482421875E-07;1 µA
10;4089;499,346210739272;-0,01776123046875;3,900146484375E-08;1 µA
11;4145;506,178210722023;0,11627197265625;7,75146484375E-08;1 µA
11;4201;513,010210704774;0,228790283203125;5,902099609375E-08;1 µA
11;4257;519,842210687525;0,087493896484375;-1,1456298828125E-07;1 µA
11;4313;526,674210670275;-0,0513702392578125;-5,0262451171875E-07;1 µA
11;4369;533,506210653026;-0,190948486328125;-1,10321044921875E-06;1 µA
11;4425;540,338210635777;-0,1923828125;-1,087646484375E-06;1 µA
11;4481;547,170210618528;-0,06036376953125;1,317138671875E-07;1 µA
12;4537;554,002210601279;0,073638916015625;1,165771484375E-07;1 µA
12;4593;560,83421058403;0,208282470703125;7,51953125E-08;1 µA
12;4649;567,666210566781;0,1319580078125;-6,170654296875E-08;1 µA
12;4705;574,498210549531;-0,00538024902343751;-3,170166015625E-07;1 µA
12;4761;581,330210532282;-0,14361572265625;-9,2041015625E-07;1 µA
12;4817;588,162210515033;-0,234283447265625;-2,113037109375E-06;1 µA
12;4873;594,994210497784;-0,100677490234375;-1,04736328125E-07;1 µA
13;4929;601,826210480535;0,0332305908203125;9,3292236328125E-08;1 µA
13;4985;608,658210463286;0,164947509765625;6,2103271484375E-08;1 µA
13;5041;615,490210446037;0,17852783203125;-1,3275146484375E-08;1 µA
13;5097;622,322210428787;0,03709716796875;-1,942138671875E-07;1 µA
13;5153;629,154210411538;-0,102325439453125;-7,2113037109375E-07;1 µA
13;5209;635,986210394289;-0,238037109375;-1,7535400390625E-06;1 µA
13;5265;642,81821037704;-0,14324951171875;-5,5145263671875E-07;1 µA
13;5321;649,650210359791;-0,0110198974609375;4,8828125E-08;1 µA
14;5377;656,482210342542;0,123504638671875;8,428955078125E-08;1 µA
14;5433;663,314210325293;0,22235107421875;5,1971435546875E-08;1 µA
14;5489;670,146210308043;0,08184814453125;-1,17919921875E-07;1 µA
14;5545;676,978210290794;-0,05621337890625;-5,2001953125E-07;1 µA
14;5601;683,810210273545;-0,19720458984375;-1,0894775390625E-06;1 µA
14;5657;690,642210256296;-0,183807373046875;-9,405517578125E-07;1 µA
14;5713;697,474210239047;-0,052276611328125;1,2371826171875E-07;1 µA
15;5769;704,306210221798;0,081024169921875;1,24420166015625E-07;1 µA
15;5825;711,138210204549;0,212310791015625;8,6273193359375E-08;1 µA
15;5881;717,970210187299;0,1268310546875;-6,268310546875E-08;1 µA
15;5937;724,80221017005;-0,01436767578125;-3,338623046875E-07;1 µA
15;5993;731,634210152801;-0,15106201171875;-9,130859375E-07;1 µA
15;6049;738,466210135552;-0,228240966796875;-1,9378662109375E-06;1 µA
15;6105;745,298210118303;-0,094970703125;1,3031005859375E-08;1 µA
16;6161;752,130210101054;0,0361724853515625;1,11572265625E-07;1 µA
16;6217;758,962210083805;0,172637939453125;7,51953125E-08;1 µA
16;6273;765,794210066555;0,1722412109375;-1,3397216796875E-08;1 µA
16;6329;772,626210049306;0,0324462890625;-2,0355224609375E-07;1 µA
16;6385;779,458210032057;-0,10577392578125;-7,23876953125E-07;1 µA
16;6441;786,290210014808;-0,2474365234375;-2,13897705078125E-06;1 µA
16;6497;793,122209997559;-0,137420654296875;-4,803466796875E-07;1 µA
16;6553;799,95420998031;-0,005908203125;6,2896728515625E-08;1 µA
17;6609;806,786209963061;0,128936767578125;1,0003662109375E-07;1 µA
17;6665;813,618209945811;0,216583251953125;5,1422119140625E-08;1 µA
17;6721;820,450209928562;0,076080322265625;-1,19476318359375E-07;1 µA
17;6777;827,282209911313;-0,062652587890625;-5,2490234375E-07;1 µA
17;6833;834,114209894064;-0,20037841796875;-1,0595703125E-06;1 µA
17;6889;840,946209876815;-0,178955078125;-8,1787109375E-07;1 µA
17;6945;847,778209859566;-0,047833251953125;1,10321044921875E-07;1 µA
18;7001;854,610209842317;0,086517333984375;1,27349853515625E-07;1 µA
18;7057;861,442209825067;0,220306396484375;1,044921875E-07;1 µA
18;7113;868,274209807818;0,12176513671875;-6,268310546875E-08;1 µA
18;7169;875,106209790569;-0,016864013671875;-3,4637451171875E-07;1 µA
18;7225;881,93820977332;-0,1578369140625;-8,929443359375E-07;1 µA
18;7281;888,770209756071;-0,22161865234375;-1,75933837890625E-06;1 µA
18;7337;895,602209738822;-0,08880615234375;8,41064453125E-08;1 µA
19;7393;902,434209721573;0,0424285888671875;1,10382080078125E-07;1 µA
19;7449;909,266209704324;0,17608642578125;9,0301513671875E-08;1 µA
19;7505;916,098209687074;0,16729736328125;-1,129150390625E-08;1 µA
19;7561;922,930209669825;0,0277374267578125;-2,132568359375E-07;1 µA
19;7617;929,762209652576;-0,110992431640625;-7,171630859375E-07;1 µA
19;7673;936,594209635327;-0,25213623046875;-2,3101806640625E-06;1 µA
19;7729;943,426209618078;-0,1343994140625;-4,06494140625E-07;1 µA
19;7785;950,258209600829;-0,000744628906250003;6,1065673828125E-08;1 µA
20;7841;957,09020958358;0,1322021484375;1,05712890625E-07;1 µA
20;7897;963,92220956633;0,2073974609375;5,0567626953125E-08;1 µA
20;7953;970,754209549081;0,0689697265625;-1,28631591796875E-07;1 µA
20;8009;977,586209531832;-0,071319580078125;-5,413818359375E-07;1 µA
20;8065;984,418209514583;-0,208831787109375;-1,04583740234375E-06;1 µA
20;8121;991,250209497334;-0,1739501953125;-6,8267822265625E-07;1 µA
20;8177;998,082209480085;-0,038372802734375;7,87353515625E-08;1 µA
21;8233;1004,91420946284;0,09423828125;1,1767578125E-07;1 µA
21;8289;1011,74620944559;0,225250244140625;1,2335205078125E-07;1 µA
21;8293;1012,23420944435;0,23486328125;1,33514404296875E-07;1 µA